File: measurements/KZ EDX
FFT	AudioTools 	v16.1.4 iPad battery 100%	07/01/2023, 12:34	USB-C to 3.5mm Headphone Jack Adapter L Mic Low Range	3E413E14-4E3E-409A-A5B7-705B65920E1E
Frequency	dB	Unweighted
19.5	45.5
19.8	45.7
20.1	45.8
20.3	45.8
20.6	46
20.9	46.1
21.2	46.3
21.6	46.4
21.9	46.5
22.2	46.7
22.5	46.8
22.8	46.9
23.2	47
23.5	47.1
23.8	47.3
24.2	47.4
24.5	47.6
24.9	47.8
25.3	47.9
25.6	48.1
26	48.2
26.4	48.3
26.8	48.4
27.2	48.4
27.5	48.5
28	48.5
28.4	48.5
28.8	48.6
29.2	48.7
29.6	48.8
30	48.9
30.5	49
30.9	49.1
31.4	49.1
31.8	49.1
32.3	49.1
32.8	49.1
33.2	49.1
33.7	49.1
34.2	49.2
34.7	49.2
35.2	49.3
35.7	49.3
36.2	49.3
36.8	49.3
37.3	49.3
37.9	49.4
38.4	49.5
39	49.6
39.5	49.6
40.1	49.7
40.7	49.6
41.3	49.5
41.9	49.5
42.5	49.6
43.1	49.7
43.7	49.7
44.4	49.7
45	49.6
45.7	49.5
46.3	49.4
47	49.5
47.7	49.6
48.4	49.6
49.1	49.4
49.8	49.2
50.5	49.3
51.3	49.4
52	49.4
52.8	49.4
53.5	49.3
54.3	49.3
55.1	49.2
55.9	49.3
56.7	49.4
57.5	49.5
58.4	49.6
59.2	49.6
60.1	49.6
61	49.5
61.8	49.3
62.7	49.2
63.7	49.1
64.6	49.2
65.5	49.2
66.5	49.2
67.4	49.2
68.4	49.4
69.4	49.4
70.4	49.4
71.5	49.3
72.5	49.2
73.5	49.1
74.6	48.9
75.7	48.8
76.8	48.7
77.9	48.7
79.1	48.7
80.2	48.7
81.4	48.5
82.6	48.5
83.8	48.5
85	48.4
86.2	48.5
87.5	48.7
88.7	48.8
90	48.9
91.3	48.7
92.7	48.6
94	48.6
95.4	48.5
96.8	48.4
98.2	48.4
99.6	48.4
101	48.3
103	48.3
104	48.3
106	48.3
107	48.4
109	48.3
110	48
112	47.8
113	47.8
115	47.8
117	47.8
118	47.7
120	47.8
122	47.8
124	47.6
125	47.5
127	47.4
129	47.3
131	47.2
133	47.2
135	47.2
137	47.1
139	46.8
141	46.7
143	46.7
145	46.6
147	46.4
149	46.4
151	46.3
154	46.2
156	45.9
158	45.9
160	45.8
163	45.5
165	45.4
168	45.1
170	45.1
172	45.1
175	45
177	44.9
180	44.6
183	44.6
185	44.6
188	44.5
191	44.5
194	44.5
196	44.2
199	44.1
202	44
205	43.9
208	43.6
211	43.6
214	43.6
217	43.3
220	43.1
224	42.9
227	42.9
230	42.9
234	42.9
237	42.9
240	42.8
244	42.8
247	43.2
251	43.3
255	43.1
258	42.8
262	43.3
266	43.5
270	43.4
274	43.3
278	43.4
282	43.3
286	43.2
290	43.1
294	42.9
298	42.7
303	42.6
307	42.5
312	42.1
316	41.9
321	41.9
325	42
330	41.7
335	41.5
340	41.3
345	41.1
350	41
355	40.9
360	40.9
365	40.8
371	40.7
376	40.6
382	40.4
387	40.4
393	40.6
398	40.5
404	40.4
410	40.4
416	41.2
422	41.3
428	41.3
434	41.2
441	41.3
447	41.3
454	41.3
460	41.1
467	40.7
474	40.6
481	40.5
488	40.5
495	40.4
502	40.4
509	40.5
517	40.4
524	40.3
532	40.2
540	40.1
547	40
555	40
563	40
572	39.8
580	39.7
588	39.6
597	39.6
606	39.5
614	39.5
623	39.5
632	39.3
642	39.3
651	39.3
660	39.3
670	39.3
680	39.2
690	39.2
700	39.3
710	39.3
720	39.3
731	39.3
741	39.5
752	39.6
763	39.5
774	39.4
785	39.3
797	39.3
808	39.3
820	39.3
832	39.3
844	39.3
856	39.4
869	39.3
882	39.3
894	39.4
907	39.3
921	39.4
934	39.6
948	39.8
961	39.7
975	39.8
990	40.2
1004	40.4
1019	40.5
1033	40.6
1048	40.8
1064	40.8
1079	41
1095	41.1
1111	41.1
1127	41.2
1143	41.4
1160	41.4
1177	41.3
1194	41.4
1211	41.5
1229	41.7
1247	41.6
1265	41.7
1283	41.9
1302	41.9
1321	42.2
1340	42.4
1360	42.5
1379	42.8
1399	43
1420	43.4
1440	43.5
1461	43.7
1483	44.1
1504	44.3
1526	44.6
1548	44.7
1571	45
1594	45.5
1617	45.8
1640	45.9
1664	46.3
1688	46.5
1713	46.9
1738	47.1
1763	47
1789	47.5
1815	47.9
1841	48.3
1868	48.4
1895	48.7
1923	49.2
1951	49.6
1979	49.8
2008	50.4
2037	50.7
2067	51.1
2097	51.3
2127	51.5
2158	51.9
2190	52.1
2221	52.1
2254	52.2
2287	52.2
2320	52
2354	52
2388	51.9
2423	51.6
2458	51.3
2494	51
2530	50.7
2567	50.5
2604	50.2
2642	50
2680	49.7
2719	49.4
2759	49.3
2799	49
2840	48.8
2881	48.7
2923	48.6
2965	48.6
3008	48.5
3052	48.4
3097	48.4
3142	48.5
3187	48.5
3234	48.5
3281	48.5
3328	48.5
3377	48.5
3426	48.4
3476	48.4
3526	48.7
3578	48.8
3630	48.9
3682	48.9
3736	49
3790	49.1
3846	49.3
3901	49.6
3958	49.8
4016	50.2
4074	50.7
4133	51.2
4194	51.5
4255	52.3
4316	53.1
4379	54.2
4443	55.4
4508	56.4
4573	57.4
4640	57.9
4707	59.4
4776	59.7
4845	59.5
4916	59.1
4987	59.2
5060	59
5133	58.6
5208	58.3
5284	57.6
5360	57.5
5438	57.6
5518	57.7
5598	57.5
5679	57.9
5762	57.7
5846	56.5
5931	55.8
6017	56.6
6104	56.2
6193	54.8
6283	53.3
6375	51.4
6467	50
6561	48.6
6657	46.3
6754	45
6852	43.4
6952	42.7
7053	41.4
7155	40.4
7259	39.8
7365	39.2
7472	38.2
7581	37.7
7691	37.1
7803	36.9
7916	36.8
8032	36.7
8148	36.8
8267	37
8387	37.7
8509	38.1
8633	38.9
8758	39.3
8886	40.8
9015	41.7
9146	43
9279	45.8
9414	47.6
9551	49.8
9690	50.4
9831	49.3
9974	45.4
10119	43.6
10266	41.8
10416	39.8
10567	39.8
10721	38.9
10877	38.4
11035	38.1
11196	37.9
11358	38.1
11524	38.5
11691	39.6
11861	39.7
12034	42.3
12209	44.6
12386	45.8
12567	45.7
12749	44.4
12935	41.1
13123	39.2
13314	38.2
13507	36.9
13704	36.3
13903	36.1
14105	36.5
14311	37.3
14519	40.3
14730	42.2
14944	42.7
15162	38.9
15382	36.4
15606	32.1
15833	29.7
16063	28.4
16297	26.9
16534	26.4
16774	26.7
17018	27.2
17266	28
17517	30.9
17772	33.3
18030	34.6
18293	33.4
18559	31.2
18829	27.9
19102	26.4
19380	25.7
20000	24.9
overall dB	72.2 dB
decay	Average
averaging	1/24 Octave
source	USB-C to 3.5mm Headphone Jack Adapter L Mic Low Range
latitude	52
longitude	4.358
saved	07/01/2023, 12:34
peak	30.8Hz